{"resourceType":"Bundle","id":"478f1808-c4b3-408a-829a-c6e9eef5753c","type":"collection","entry":[{"fullUrl":"https://ehrwebapi.cutecharts.com/radywebapi/EndPoint/radysans-endpoint","resource":{"resourceType":"Endpoint","id":"radysans-endpoint","status":"active","connectionType":{"system":"http://terminology.hl7.org/CodeSystem/endpoint-connection-type","code":"hl7-fhir-rest","display":"HL7 FHIR"},"name":"Radysans Endpoint","managingOrganization":{"reference":"Organization/radysans"},"payloadType":[{"coding":[{"system":"http://hl7.org/fhir/us/davinci-pdex-plan-net/CodeSystem/EndpointPayloadTypeCS","code":"NA"}]}],"payloadMimeType":["application/fhir+json","application/json+fhir"],"address":"https://ehrwebapi.cutecharts.com/radywebapi"}},{"fullUrl":"https://ehrwebapi.cutecharts.com/radywebapi/Organization/radysans","resource":{"resourceType":"Organization","id":"radysans","identifier":[{"system":"http://hl7.org/fhir/sid/us-npi","value":"099999990"}],"active":true,"name":"Radysans Inc.","address":[{"line":["1701 Center Street, Suite 200"],"city":"Apex","state":"NC","postalCode":"27502","country":"United States of America"}],"endpoint":[{"reference":"Endpoint/radysans-endpoint"}]}}]}